Folder: Master_UIBK/VOSviewer

Note: VOSviewer/cluster_colors_MinOcc3.txt
cluster	red	green	blue
1	225	50	50
2	130	100	255
3	0	0	0
4	0	180	100
5	255	215	70
6	170	170	180
7	0	10	50

Note: VOSviewer/thesaurus_terms_20250804.txt
label	replace by
ai	artificial Intelligence
artificial intelligence (ai)	artificial intelligence
autoencoders	autoencoder
cnn	convolutional neural network
convolutional neural networks	convolutional neural network
convolutional neural networks (cnns)	convolutional neural network
convolutional neural network (cnn)	convolutional neural network
deep convolutional neural networks	deep convolutional neural network
deep learning (dl)	deep learning
deeplearning	deep learning
defects detection	defect detection
detect defection	defect detection
improved yolov3	yolo
industrial 4. revolution	industry 4.0
machine learning (ml)	machine learning
quality control (qc)	quality control
support vector machine (svm)	support vector machine
svm	support vector machine
vision transformer (vit)	vision transformer
yolov8	yolo
yolo training model	yolo
yolov5	yolo
yolov5s	yolo
aas	
anova	
bbch	
convlsm network	
crackjpu	
dicom	
ia	
machine learning operations (mlops)	
mlcc	
mttf	
ndfeb alloy	
nir	
plsr	
tsdc	
xrct

Note: VOSviewer/VOSviewer_Map_MA_TGA_20250825.txt
id	label	x	y	cluster	weight<Links>	weight<Total link strength>	weight<Occurrences>	score<Avg. pub. year>
7	artificial intelligence	0.8677	0.1784	3	5	7	6	2022.5
13	attention mechanism	-0.7578	0.8076	1	3	5	3	2024.6667
32	computer vision	-0.5059	-0.6116	2	5	7	3	2022
38	convolutional neural network	0.0876	-0.4343	1	7	17	13	2021.4615
47	deep learning	-0.0516	0.0468	1	13	44	30	2022.7
52	defect detection	-0.3295	0.4508	1	8	23	21	2022.8095
89	image processing	0.7812	-0.5717	3	3	3	3	2022.6667
98	industrial inspection	-0.836	-0.5136	2	5	7	3	2022.6667
119	machine learning	0.735	-0.0019	3	3	4	3	2023.3333
120	machine vision	-0.4506	0.187	1	8	16	9	2022.2222
156	quality assurance	0.8627	-0.2233	3	5	7	4	2021.25
157	quality control	-0.2344	-0.2215	2	7	10	7	2023
194	surface defect detection	0.1355	0.4568	4	5	7	6	2024.3333
199	transfer learning	-0.7782	-0.2433	2	5	6	6	2022.5
216	yolo	0.4743	0.6938	4	4	7	5	2024.2

Note: README.md
# Master_UIBK  
  
## From Defining Shop Floor Requirements to Implementing Strategic Solutions: Investigating Artificial Intelligence for Visual Quality Control in Manufacturing  
   
[![Python](https://img.shields.io/badge/python-v3.8+-blue.svg)](https://www.python.org/downloads/)  
[![VOSviewer](https://img.shields.io/badge/VOSviewer-Network%20Analysis-purple.svg)](https://www.vosviewer.com/)  
[![University](https://img.shields.io/badge/University-UIBK-orange.svg)](https://www.uibk.ac.at/)  
[![KemÃ©ny Boehme Consultants SE](https://img.shields.io/badge/Partner-KemÃ©ny%20Boehme%20Consultants-green.svg)](https://kbc-consultants.com/)
  
---  
  
### ğŸ“‹ Project Information  
  
**Master's Thesis Repository**    
**Author:** Tamino Gaub   
**Matriculation Number:** 12314484    
**University:** [University of Innsbruck (UIBK)](https://www.uibk.ac.at/en/)  
**Department**: [InforÂ­maÂ­tion SysÂ­tems, ProÂ­ducÂ­tion and LogisÂ­tics ManÂ­ageÂ­ment](https://www.uibk.ac.at/en/wipl/)  
**In Collaboration with:** [KemÃ©ny Boehme Consultants SE](https://kbc-consultants.com/)  
**Supervisors:** Assoz.-Prof. Mag. Mag. Stefan Haeussler, PhD    
  
---  
  
### ğŸ“– Abstract  
  
This repository contains the complete research materials and analysis for a Master's thesis investigating the application of Artificial Intelligence in Visual Quality Control within manufacturing environments. The research combines theoretical foundations with practical implementation strategies, bridging the gap between shop floor requirements and strategic AI solutions.

<span style="color: orange;">Abstract of the master's thesis will be submitted here later.</span>

  
---  
  
### ğŸ“ Repository Structure  
Master_UIBK/  
â”‚   
â”œâ”€â”€ Calculations and Plots/  
â”‚   â”œâ”€â”€ Plot Outputs/  
â”‚   â”‚   â”œâ”€â”€ 01_LiteratureTrends.pdf  
â”‚   â”‚   â”œâ”€â”€ 02_MarketSizeShareByIndustry.pdf  
â”‚   â”‚   â”œâ”€â”€ 03_SLR_Publication_Trend.pdf  
â”‚   â”‚   â”œâ”€â”€ 04_Code_Dataset_Availability.pdf  
â”‚   â”‚   â”œâ”€â”€ 05_Performance_Measurements.pdf  
â”‚   â”‚   â”œâ”€â”€ 06_Measurement_Time.pdf  
â”‚   â”‚   â”œâ”€â”€ 07_Pixel_Sizes.pdf  
â”‚   â”‚   â””â”€â”€ 08_Dataset_Size.pdf  
â”‚   â”œâ”€â”€ 01_MarketSizeShareByIndustry.ipynb  
â”‚   â”œâ”€â”€ 02_LiteratureTrends.ipynb  
â”‚   â”œâ”€â”€ 03_Descriptive_Analysis.ipynb  
â”‚   â””â”€â”€ 04_Content_Analysis.ipynb  
â””â”€â”€ VOSviewer/  
â”‚   â”œâ”€â”€ cluster_colors_MinOcc3.txt  
â”‚   â”œâ”€â”€ Manual_VOSviewer_1.6.20.pdf  
â”‚   â”œâ”€â”€ ScienceDirect_citations.ris  
â”‚   â”œâ”€â”€ thesaurus_terms_20250804.txt  
â”‚   â”œâ”€â”€ VosViewer_MA_TGA_20250825.pdf  
â”‚   â”œâ”€â”€ VOSviewer_Map_MA_TGA_20250804.txt  
â”‚   â””â”€â”€ VOSviewer_Network_MA_TGA_20250825.txt  
â”‚   
â”œâ”€â”€ <span style="color: orange;">TBD: 00_Master_Thesis_TGA.pdf</span>  
â”œâ”€â”€ 01_InitialSearchStrings_20250630.xlsx  
â”œâ”€â”€ 02_SLR_20250726.xlsx  
â””â”€â”€ README.md  # This file 
  
---  
  
### ğŸ”¬ Research Methodology  

File: VOSviewer_Network_MA_TGA_20250825.txt
7	47	1
7	52	1
7	119	2
7	156	2
7	216	1
13	47	2
13	52	2
13	120	1
32	38	1
32	47	2
32	52	2
32	98	1
32	157	1
38	47	8
38	52	3
38	89	1
38	120	2
38	194	1
38	199	1
47	52	9
47	89	1
47	98	3
47	120	5
47	156	2
47	157	3
47	194	3
47	199	2
47	216	3
52	98	1
52	120	3
52	216	2
89	156	1
98	157	1
98	199	1
119	156	1
119	157	1
120	156	1
120	157	2
120	194	1
120	199	1
157	194	1
157	199	1
194	216	1